wavelength dry wet acid apple
  0.400000  0.762200  0.654700  0.007900  0.119900
  0.401000  0.764600  0.656900  0.008400  0.120000
  0.402000  0.764900  0.658700  0.007800  0.121900
  0.403000  0.766600  0.660000  0.008500  0.122800
  0.404000  0.767900  0.662200  0.008400  0.124100
  0.405000  0.769200  0.664600  0.008400  0.125200
  0.406000  0.769400  0.665000  0.007800  0.126100
  0.407000  0.771500  0.665000  0.008400  0.127000
  0.408000  0.772800  0.666900  0.008400  0.127900
  0.409000  0.773000  0.668700  0.008400  0.129300
  0.410000  0.774100  0.669500  0.007900  0.129400
  0.411000  0.775700  0.670700  0.009000  0.130200
  0.412000  0.775800  0.671300  0.008400  0.132000
  0.413000  0.776300  0.672600  0.007800  0.132700
  0.414000  0.777300  0.672400  0.008400  0.133500
  0.415000  0.778500  0.673500  0.009000  0.134400
  0.416000  0.778300  0.675100  0.009000  0.135700
  0.417000  0.779600  0.676100  0.008500  0.136700
  0.418000  0.781200  0.675900  0.008500  0.138000
  0.419000  0.781800  0.676700  0.009100  0.139300
  0.420000  0.782700  0.678800  0.009100  0.140000
  0.421000  0.784100  0.679600  0.008400  0.141600
  0.422000  0.784200  0.679800  0.009100  0.142400
  0.423000  0.784600  0.681200  0.009100  0.143000
  0.424000  0.786400  0.681200  0.009000  0.144300
  0.425000  0.787200  0.681900  0.009000  0.145000
  0.426000  0.786400  0.682800  0.009000  0.146000
  0.427000  0.787500  0.684100  0.009600  0.147100
  0.428000  0.788800  0.684100  0.009000  0.148300
  0.429000  0.789100  0.684800  0.009100  0.149300
  0.430000  0.789400  0.686800  0.009700  0.149800
  0.431000  0.791000  0.687000  0.009700  0.151100
  0.432000  0.792000  0.686700  0.009000  0.151900
  0.433000  0.792000  0.688300  0.009600  0.153000
  0.434000  0.793800  0.689500  0.009700  0.153800
  0.435000  0.794500  0.689600  0.009700  0.154900
  0.436000  0.794400  0.690700  0.009100  0.155900
  0.437000  0.796200  0.692000  0.009700  0.156600
  0.438000  0.796300  0.691700  0.010300  0.157400
  0.439000  0.797100  0.692000  0.010300  0.158200
  0.440000  0.797700  0.693400  0.009700  0.158900
  0.441000  0.798100  0.693400  0.009700  0.160300
  0.442000  0.798900  0.693600  0.010200  0.160800
  0.443000  0.798300  0.694800  0.010200  0.162400
  0.444000  0.799100  0.695600  0.008400  0.163100
  0.445000  0.800900  0.695000  0.009000  0.164200
  0.446000  0.800200  0.696200  0.011400  0.165000
  0.447000  0.801100  0.697100  0.011500  0.165900
  0.448000  0.802100  0.696300  0.010900  0.166400
  0.449000  0.802400  0.696900  0.011400  0.168000
  0.450000  0.801900  0.698000  0.011500  0.168300
  0.451000  0.803100  0.699000  0.011500  0.169800
  0.452000  0.803900  0.698400  0.010900  0.170300
  0.453000  0.804200  0.698800  0.011500  0.170900
  0.454000  0.804400  0.699500  0.011500  0.171900
  0.455000  0.805700  0.700200  0.011500  0.172700
  0.456000  0.806300  0.700600  0.011500  0.173600
  0.457000  0.806500  0.700300  0.011500  0.174400
  0.458000  0.807000  0.701500  0.011500  0.175300
  0.459000  0.808000  0.702100  0.011400  0.176500
  0.460000  0.808400  0.702600  0.012000  0.177400
  0.461000  0.809100  0.703200  0.011400  0.178200
  0.462000  0.810200  0.703200  0.011500  0.179200
  0.463000  0.810200  0.703600  0.011500  0.180600
  0.464000  0.809800  0.703500  0.012100  0.181600
  0.465000  0.811100  0.703600  0.012700  0.182600
  0.466000  0.810900  0.703700  0.012100  0.183100
  0.467000  0.811300  0.704800  0.012100  0.183800
  0.468000  0.811900  0.705600  0.012100  0.185000
  0.469000  0.813000  0.704800  0.012700  0.185800
  0.470000  0.812400  0.705000  0.012100  0.186600
  0.471000  0.813400  0.706200  0.012000  0.187700
  0.472000  0.813500  0.706800  0.012700  0.188300
  0.473000  0.814000  0.706800  0.012000  0.189400
  0.474000  0.814300  0.706600  0.012100  0.190400
  0.475000  0.815800  0.708000  0.013300  0.191200
  0.476000  0.815800  0.708300  0.013200  0.191600
  0.477000  0.815800  0.708100  0.012600  0.193100
  0.478000  0.817100  0.707700  0.012700  0.193500
  0.479000  0.817100  0.709100  0.013300  0.194800
  0.480000  0.817000  0.710000  0.013300  0.196200
  0.481000  0.818900  0.710100  0.012700  0.197100
  0.482000  0.818300  0.709700  0.013200  0.197700
  0.483000  0.818600  0.710400  0.013900  0.199000
  0.484000  0.820100  0.711300  0.013300  0.200300
  0.485000  0.820400  0.711200  0.013200  0.201300
  0.486000  0.820500  0.710900  0.013900  0.202300
  0.487000  0.822000  0.711800  0.013800  0.203100
  0.488000  0.821700  0.713300  0.013800  0.204000
  0.489000  0.821600  0.712800  0.013800  0.205400
  0.490000  0.823000  0.712200  0.014400  0.206000
  0.491000  0.823100  0.712800  0.014400  0.207500
  0.492000  0.824000  0.713300  0.013700  0.207700
  0.493000  0.824700  0.714200  0.014400  0.209300
  0.494000  0.824900  0.713900  0.014400  0.210100
  0.495000  0.825400  0.714300  0.014300  0.210900
  0.496000  0.825600  0.714500  0.014300  0.211700
  0.497000  0.826500  0.715400  0.014900  0.213100
  0.498000  0.826700  0.715500  0.015500  0.214600
  0.499000  0.827400  0.715200  0.015400  0.215400
  0.500000  0.827500  0.715100  0.014800  0.216400
  0.501000  0.828300  0.715800  0.015400  0.217900
  0.502000  0.827800  0.716100  0.015400  0.218700
  0.503000  0.827400  0.715800  0.015400  0.219800
  0.504000  0.828600  0.715900  0.015400  0.220800
  0.505000  0.828700  0.715500  0.015900  0.221900
  0.506000  0.829400  0.716200  0.015900  0.222900
  0.507000  0.829400  0.716800  0.015300  0.224100
  0.508000  0.830600  0.716800  0.015900  0.225300
  0.509000  0.830600  0.716900  0.016500  0.226300
  0.510000  0.829400  0.717100  0.015900  0.227000
  0.511000  0.830500  0.718600  0.015900  0.228400
  0.512000  0.831200  0.718400  0.016500  0.229700
  0.513000  0.831100  0.717800  0.016500  0.231000
  0.514000  0.831600  0.718100  0.015900  0.231600
  0.515000  0.832600  0.719500  0.016500  0.232800
  0.516000  0.832500  0.718700  0.016500  0.234500
  0.517000  0.832300  0.718500  0.016600  0.235300
  0.518000  0.832700  0.719600  0.016600  0.236100
  0.519000  0.834300  0.720200  0.017100  0.237800
  0.520000  0.833600  0.719700  0.017200  0.238700
  0.521000  0.834500  0.719500  0.017100  0.240000
  0.522000  0.835400  0.719500  0.017200  0.240600
  0.523000  0.835600  0.720800  0.017800  0.242700
  0.524000  0.834800  0.720500  0.017200  0.243700
  0.525000  0.836200  0.720200  0.017700  0.245000
  0.526000  0.836400  0.721200  0.017700  0.246400
  0.527000  0.836200  0.720900  0.018300  0.247700
  0.528000  0.836700  0.720900  0.017700  0.248700
  0.529000  0.837400  0.721700  0.017700  0.249800
  0.530000  0.837300  0.721900  0.018300  0.251100
  0.531000  0.837000  0.722400  0.018200  0.251700
  0.532000  0.838100  0.721900  0.018300  0.253100
  0.533000  0.838700  0.721800  0.018200  0.254000
  0.534000  0.838000  0.722500  0.018800  0.255600
  0.535000  0.838800  0.722300  0.019000  0.257100
  0.536000  0.839200  0.721800  0.018500  0.258300
  0.537000  0.838600  0.722400  0.018500  0.259300
  0.538000  0.839200  0.723900  0.019100  0.260900
  0.539000  0.840900  0.723300  0.019700  0.262300
  0.540000  0.841400  0.723800  0.019100  0.263700
  0.541000  0.840400  0.723900  0.019100  0.264700
  0.542000  0.839900  0.723000  0.019700  0.265000
  0.543000  0.840500  0.722600  0.019700  0.266600
  0.544000  0.841700  0.723800  0.019700  0.267500
  0.545000  0.840600  0.723900  0.019700  0.268500
  0.546000  0.840800  0.724000  0.020300  0.269900
  0.547000  0.842000  0.723300  0.020200  0.271400
  0.548000  0.843300  0.724500  0.020200  0.272800
  0.549000  0.842300  0.724700  0.020200  0.273900
  0.550000  0.843500  0.723800  0.020800  0.275300
  0.551000  0.844100  0.724600  0.020800  0.276300
  0.552000  0.844700  0.725700  0.020800  0.277500
  0.553000  0.844500  0.725800  0.021300  0.278900
  0.554000  0.845100  0.725000  0.021100  0.280400
  0.555000  0.846000  0.726100  0.021200  0.281400
  0.556000  0.845200  0.726100  0.021900  0.283000
  0.557000  0.845700  0.725500  0.021900  0.283800
  0.558000  0.847200  0.726000  0.021900  0.285100
  0.559000  0.847300  0.726400  0.021500  0.286700
  0.560000  0.847500  0.727000  0.022200  0.287900
  0.561000  0.850900  0.730200  0.022400  0.290300
  0.562000  0.852000  0.729800  0.022400  0.291700
  0.563000  0.851100  0.731100  0.023000  0.293000
  0.564000  0.851400  0.730600  0.023600  0.294000
  0.565000  0.851700  0.730000  0.023500  0.295500
  0.566000  0.851800  0.730700  0.023000  0.296300
  0.567000  0.851700  0.730900  0.023500  0.298100
  0.568000  0.852600  0.730300  0.024200  0.299300
  0.569000  0.853200  0.730700  0.024200  0.300600
  0.570000  0.852800  0.731300  0.023600  0.301800
  0.571000  0.852200  0.730400  0.023700  0.302800
  0.572000  0.852500  0.730800  0.024200  0.304200
  0.573000  0.853100  0.730200  0.024700  0.305300
  0.574000  0.851300  0.729900  0.024300  0.307300
  0.575000  0.851300  0.729800  0.024500  0.307600
  0.576000  0.852500  0.729800  0.024700  0.309100
  0.577000  0.851400  0.729700  0.024800  0.310300
  0.578000  0.852200  0.730600  0.024900  0.311700
  0.579000  0.852700  0.731000  0.024900  0.313100
  0.580000  0.852500  0.730600  0.025500  0.314500
  0.581000  0.852300  0.728500  0.025400  0.315900
  0.582000  0.851700  0.729000  0.025500  0.317500
  0.583000  0.852300  0.730300  0.025500  0.318400
  0.584000  0.853100  0.729600  0.026600  0.320000
  0.585000  0.852100  0.729400  0.026000  0.321000
  0.586000  0.852200  0.729500  0.026000  0.322400
  0.587000  0.853600  0.729500  0.026000  0.324000
  0.588000  0.853700  0.729700  0.026700  0.325200
  0.589000  0.852100  0.728600  0.026700  0.326800
  0.590000  0.853400  0.729900  0.026700  0.328000
  0.591000  0.854100  0.730300  0.027200  0.329400
  0.592000  0.855100  0.730400  0.027800  0.330500
  0.593000  0.853900  0.729600  0.027200  0.332300
  0.594000  0.855300  0.730900  0.027200  0.333900
  0.595000  0.854900  0.730600  0.027900  0.334500
  0.596000  0.855400  0.730300  0.027900  0.336300
  0.597000  0.855200  0.731000  0.027900  0.337100
  0.598000  0.856300  0.730900  0.028400  0.338700
  0.599000  0.857400  0.730600  0.029000  0.339600
  0.600000  0.857000  0.731000  0.029000  0.341000
  0.601000  0.856600  0.732500  0.028400  0.342300
  0.602000  0.857400  0.731500  0.029400  0.343300
  0.603000  0.858100  0.732400  0.029900  0.344500
  0.604000  0.857900  0.733500  0.029700  0.346000
  0.605000  0.858200  0.733500  0.029600  0.347500
  0.606000  0.858300  0.732100  0.030100  0.348600
  0.607000  0.858800  0.733300  0.030700  0.349400
  0.608000  0.858000  0.732800  0.030800  0.350600
  0.609000  0.857900  0.731800  0.030700  0.351300
  0.610000  0.858100  0.732600  0.031300  0.352500
  0.611000  0.858700  0.732600  0.031900  0.353500
  0.612000  0.858100  0.732500  0.031800  0.354300
  0.613000  0.857500  0.732700  0.031200  0.355800
  0.614000  0.858000  0.733200  0.031700  0.356000
  0.615000  0.858200  0.732900  0.032300  0.356800
  0.616000  0.858100  0.731700  0.032400  0.358000
  0.617000  0.857600  0.732200  0.032400  0.359200
  0.618000  0.858000  0.733000  0.033000  0.359700
  0.619000  0.858400  0.731400  0.033500  0.360700
  0.620000  0.857400  0.731300  0.032900  0.362000
  0.621000  0.858600  0.731500  0.032900  0.362600
  0.622000  0.858200  0.732200  0.033000  0.363400
  0.623000  0.858300  0.731800  0.034300  0.364500
  0.624000  0.858200  0.732000  0.034200  0.365200
  0.625000  0.858200  0.731700  0.034100  0.366300
  0.626000  0.859300  0.732900  0.035100  0.367200
  0.627000  0.858300  0.731900  0.035200  0.368300
  0.628000  0.858300  0.731400  0.035400  0.368900
  0.629000  0.859300  0.732100  0.035300  0.369400
  0.630000  0.859700  0.732600  0.036400  0.371100
  0.631000  0.858500  0.731700  0.036400  0.371700
  0.632000  0.859100  0.732200  0.037000  0.372700
  0.633000  0.859900  0.733000  0.036500  0.373400
  0.634000  0.860200  0.733100  0.037200  0.374500
  0.635000  0.858800  0.731800  0.037700  0.374700
  0.636000  0.860500  0.732100  0.037700  0.375500
  0.637000  0.860400  0.732900  0.037600  0.376700
  0.638000  0.860400  0.732600  0.038700  0.377500
  0.639000  0.859300  0.732300  0.038800  0.377900
  0.640000  0.860600  0.732800  0.038800  0.378600
  0.641000  0.859800  0.732900  0.038800  0.379900
  0.642000  0.859700  0.731400  0.039900  0.380100
  0.643000  0.860200  0.732700  0.039900  0.381300
  0.644000  0.860800  0.732800  0.039300  0.381500
  0.645000  0.861200  0.731900  0.040000  0.382000
  0.646000  0.859600  0.732100  0.040700  0.382800
  0.647000  0.860700  0.732500  0.040600  0.383100
  0.648000  0.861100  0.733300  0.040600  0.384000
  0.649000  0.860600  0.732000  0.041700  0.384100
  0.650000  0.859900  0.732300  0.041600  0.385600
  0.651000  0.861200  0.732500  0.041700  0.386000
  0.652000  0.861200  0.731900  0.042300  0.386700
  0.653000  0.860700  0.731300  0.042900  0.387100
  0.654000  0.860500  0.732700  0.042300  0.387600
  0.655000  0.860900  0.732600  0.042900  0.388000
  0.656000  0.861400  0.731700  0.043500  0.389300
  0.657000  0.860900  0.731600  0.043400  0.390200
  0.658000  0.860600  0.731800  0.043500  0.389900
  0.659000  0.861300  0.731100  0.044800  0.391100
  0.660000  0.860700  0.731100  0.044800  0.391800
  0.661000  0.860600  0.731400  0.044800  0.392300
  0.662000  0.861700  0.731600  0.045200  0.392400
  0.663000  0.861700  0.731200  0.045800  0.393400
  0.664000  0.860200  0.731300  0.045700  0.393900
  0.665000  0.861300  0.731300  0.046400  0.394900
  0.666000  0.861900  0.731500  0.046900  0.395200
  0.667000  0.861200  0.730500  0.046900  0.396100
  0.668000  0.861500  0.730400  0.046900  0.396300
  0.669000  0.861600  0.731600  0.048100  0.397600
  0.670000  0.861600  0.731500  0.048200  0.398200
  0.671000  0.860700  0.731100  0.047700  0.398500
  0.672000  0.860800  0.731200  0.048900  0.398900
  0.673000  0.862000  0.731100  0.048900  0.400400
  0.674000  0.861300  0.731100  0.049300  0.400800
  0.675000  0.860600  0.730200  0.049800  0.401800
  0.676000  0.861300  0.731000  0.050400  0.402700
  0.677000  0.861300  0.730700  0.050600  0.403400
  0.678000  0.860800  0.730400  0.050000  0.403900
  0.679000  0.862300  0.730400  0.050600  0.404000
  0.680000  0.861500  0.731900  0.050500  0.404200
  0.681000  0.861500  0.731100  0.049800  0.405500
  0.682000  0.861600  0.730000  0.050500  0.405600
  0.683000  0.861900  0.730600  0.050600  0.406700
  0.684000  0.862200  0.730900  0.050700  0.407700
  0.685000  0.862000  0.731100  0.051200  0.408300
  0.686000  0.862500  0.731400  0.051600  0.408500
  0.687000  0.863100  0.730900  0.052100  0.409300
  0.688000  0.862100  0.731800  0.052100  0.409600
  0.689000  0.862600  0.731000  0.052200  0.410500
  0.690000  0.863700  0.730800  0.052800  0.411300
  0.691000  0.862900  0.731200  0.054000  0.411600
  0.692000  0.862800  0.731600  0.056300  0.411600
  0.693000  0.863900  0.730800  0.056300  0.412300
  0.694000  0.864100  0.731100  0.057500  0.413200
  0.695000  0.864300  0.731700  0.057700  0.413900
  0.696000  0.863800  0.731900  0.057800  0.414700
  0.697000  0.864200  0.731100  0.058300  0.414500
  0.698000  0.864600  0.731500  0.058800  0.415500
  0.699000  0.863500  0.732100  0.058100  0.415700
  0.700000  0.863600  0.730200  0.057800  0.415800
  0.701000  0.864100  0.731000  0.057800  0.416800
  0.702000  0.866000  0.731900  0.060000  0.417400
  0.703000  0.865500  0.731700  0.060100  0.417700
  0.704000  0.865500  0.731300  0.061200  0.418600
  0.705000  0.865700  0.730800  0.061200  0.418500
  0.706000  0.865400  0.730900  0.061500  0.419300
  0.707000  0.864200  0.730200  0.062600  0.419600
  0.708000  0.864800  0.729400  0.062700  0.420200
  0.709000  0.865500  0.730200  0.062700  0.420400
  0.710000  0.865300  0.729200  0.063400  0.420800
  0.711000  0.864500  0.729200  0.063300  0.421300
  0.712000  0.865000  0.729200  0.062700  0.422100
  0.713000  0.865000  0.729000  0.063400  0.422300
  0.714000  0.864000  0.728100  0.063600  0.422100
  0.715000  0.864300  0.727700  0.063600  0.422700
  0.716000  0.864500  0.728500  0.064600  0.423500
  0.717000  0.864100  0.727700  0.065600  0.423100
  0.718000  0.863400  0.727400  0.066100  0.424000
  0.719000  0.863600  0.726700  0.066300  0.424000
  0.720000  0.864800  0.727500  0.066200  0.424200
  0.721000  0.864000  0.727000  0.067500  0.424900
  0.722000  0.862700  0.726700  0.068600  0.425300
  0.723000  0.863900  0.726300  0.068500  0.425800
  0.724000  0.864800  0.726300  0.068700  0.426200
  0.725000  0.865000  0.726300  0.069400  0.426300
  0.726000  0.864400  0.726300  0.069400  0.426900
  0.727000  0.863600  0.725500  0.069700  0.427100
  0.728000  0.864100  0.726100  0.070100  0.427300
  0.729000  0.864200  0.725700  0.071400  0.427900
  0.730000  0.864900  0.725100  0.072200  0.428000
  0.731000  0.864100  0.726100  0.072800  0.428700
  0.732000  0.863900  0.724800  0.072500  0.428900
  0.733000  0.863900  0.723900  0.073100  0.429700
  0.734000  0.864800  0.723600  0.073900  0.429400
  0.735000  0.864900  0.724400  0.074100  0.430100
  0.736000  0.864200  0.723500  0.074600  0.430400
  0.737000  0.864600  0.723200  0.075000  0.430800
  0.738000  0.864000  0.723200  0.075400  0.431000
  0.739000  0.863100  0.723000  0.075600  0.431100
  0.740000  0.863800  0.723300  0.075600  0.431500
  0.741000  0.864600  0.723200  0.076600  0.431900
  0.742000  0.864500  0.722600  0.077200  0.432000
  0.743000  0.864000  0.723300  0.077700  0.432700
  0.744000  0.864400  0.722300  0.078500  0.432700
  0.745000  0.865000  0.721900  0.079300  0.433000
  0.746000  0.864100  0.722300  0.079700  0.433000
  0.747000  0.863700  0.723000  0.080100  0.433700
  0.748000  0.863900  0.722600  0.080500  0.434400
  0.749000  0.863900  0.722100  0.081900  0.433900
  0.750000  0.863100  0.722300  0.082400  0.434900
  0.751000  0.863400  0.723300  0.082900  0.434800
  0.752000  0.864500  0.722100  0.084000  0.435300
  0.753000  0.863700  0.721600  0.084300  0.435100
  0.754000  0.862800  0.722000  0.084400  0.435400
  0.755000  0.864200  0.722600  0.084900  0.435400
  0.756000  0.863100  0.721800  0.085100  0.436100
  0.757000  0.862600  0.721000  0.085200  0.436100
  0.758000  0.863100  0.721400  0.085900  0.436200
  0.759000  0.864200  0.722100  0.085400  0.436900
  0.760000  0.863400  0.720700  0.086400  0.437400
  0.761000  0.861900  0.720700  0.087400  0.437400
  0.762000  0.862700  0.721600  0.087600  0.437400
  0.763000  0.863800  0.721700  0.087800  0.438100
  0.764000  0.862700  0.721400  0.088900  0.437700
  0.765000  0.862600  0.721100  0.089700  0.438500
  0.766000  0.862700  0.721700  0.089700  0.438300
  0.767000  0.863400  0.721300  0.090400  0.438900
  0.768000  0.863200  0.721800  0.091200  0.439000
  0.769000  0.863100  0.721500  0.092000  0.439400
  0.770000  0.863800  0.722400  0.091300  0.440100
  0.771000  0.863500  0.721300  0.092200  0.439800
  0.772000  0.863500  0.721000  0.092400  0.440100
  0.773000  0.863900  0.722700  0.092900  0.440400
  0.774000  0.863800  0.721500  0.093200  0.440800
  0.775000  0.862900  0.721600  0.093900  0.440600
  0.776000  0.863000  0.722700  0.095100  0.441300
  0.777000  0.864400  0.722300  0.096900  0.441600
  0.778000  0.863700  0.722000  0.097200  0.441700
  0.779000  0.862600  0.721600  0.098400  0.441200
  0.780000  0.864000  0.721400  0.098700  0.441600
  0.781000  0.862900  0.722400  0.098700  0.442200
  0.782000  0.862900  0.721700  0.099600  0.442400
  0.783000  0.862900  0.722100  0.100500  0.442100
  0.784000  0.864700  0.722400  0.100600  0.442700
  0.785000  0.863000  0.721500  0.100600  0.442500
  0.786000  0.863900  0.721700  0.101800  0.442500
  0.787000  0.863800  0.722200  0.102400  0.442700
  0.788000  0.862800  0.722600  0.103000  0.442700
  0.789000  0.863000  0.721600  0.103200  0.443400
  0.790000  0.864200  0.722900  0.104300  0.443400
  0.791000  0.863500  0.722100  0.104600  0.443600
  0.792000  0.863500  0.721900  0.104600  0.443900
  0.793000  0.864100  0.721500  0.104600  0.443900
  0.794000  0.863500  0.722300  0.106100  0.444000
  0.795000  0.863300  0.722000  0.106200  0.444500
  0.796000  0.863800  0.722100  0.106500  0.444400
  0.797000  0.863300  0.721400  0.107200  0.445000
  0.798000  0.863000  0.722500  0.108300  0.444800
  0.799000  0.862900  0.722000  0.108900  0.444200
  0.800000  0.862100  0.722500  0.115700  0.443900
  0.804000  0.862000  0.721300  0.118300  0.445600
  0.808000  0.863400  0.721400  0.120800  0.446200
  0.812000  0.861300  0.721400  0.122100  0.445900
  0.816000  0.860600  0.720600  0.125600  0.447400
  0.820000  0.861300  0.718900  0.128400  0.447000
  0.824000  0.860900  0.719400  0.130300  0.448200
  0.828000  0.861800  0.718600  0.132200  0.448600
  0.832000  0.861400  0.716800  0.135600  0.448500
  0.836000  0.862700  0.715600  0.137500  0.449400
  0.840000  0.863700  0.716700  0.139600  0.449700
  0.844000  0.863200  0.717900  0.142800  0.449400
  0.848000  0.863600  0.716200  0.145200  0.451800
  0.852000  0.864200  0.715600  0.147600  0.452100
  0.856000  0.865900  0.716700  0.150700  0.453300
  0.860000  0.864800  0.715900  0.152700  0.453200
  0.864000  0.865200  0.716900  0.155100  0.453800
  0.868000  0.865200  0.716700  0.158400  0.453600
  0.872000  0.865900  0.716100  0.160200  0.454700
  0.876000  0.864600  0.715100  0.162800  0.454200
  0.880000  0.864600  0.713500  0.165600  0.455300
  0.884000  0.863400  0.714200  0.167500  0.456200
  0.888000  0.863600  0.714500  0.169900  0.457100
  0.892000  0.862900  0.712300  0.174100  0.456500
  0.896000  0.863400  0.711900  0.175900  0.456300
  0.900000  0.861200  0.712400  0.178700  0.456800
  0.904000  0.860900  0.709500  0.182600  0.457700
  0.908000  0.858000  0.707800  0.184300  0.457500
  0.912000  0.856300  0.705900  0.186400  0.458600
  0.916000  0.856900  0.704800  0.189800  0.459200
  0.920000  0.856300  0.702900  0.191000  0.458900
  0.924000  0.856900  0.699500  0.193400  0.459600
  0.928000  0.856900  0.695500  0.196600  0.460100
  0.932000  0.857200  0.689200  0.199100  0.460700
  0.936000  0.856200  0.683000  0.201800  0.460800
  0.940000  0.856900  0.676300  0.204300  0.460700
  0.944000  0.858000  0.669100  0.207500  0.461400
  0.948000  0.856800  0.657400  0.210700  0.461600
  0.952000  0.857000  0.645200  0.212500  0.462200
  0.956000  0.856600  0.637100  0.216100  0.461900
  0.960000  0.856000  0.632700  0.218800  0.461900
  0.964000  0.852100  0.628700  0.220300  0.462500
  0.968000  0.851900  0.628300  0.223600  0.462900
  0.972000  0.851300  0.626900  0.225600  0.461600
  0.976000  0.848000  0.628300  0.229400  0.461300
  0.980000  0.846800  0.627700  0.232100  0.460700
  0.984000  0.845900  0.630100  0.234600  0.462000
  0.988000  0.845500  0.631100  0.236900  0.461600
  0.992000  0.845200  0.634900  0.239400  0.462500
  0.996000  0.844400  0.639000  0.243200  0.463500
  1.000000  0.844400  0.639400  0.244100  0.463200
  1.004000  0.843600  0.644900  0.246500  0.464700
  1.008000  0.843600  0.648900  0.250400  0.465000
  1.012000  0.843800  0.651800  0.252900  0.463800
  1.016000  0.843400  0.657000  0.255900  0.465300
  1.020000  0.844500  0.662000  0.258300  0.465500
  1.024000  0.844100  0.665200  0.259800  0.466700
  1.028000  0.846100  0.669100  0.263800  0.467100
  1.032000  0.845900  0.672600  0.265500  0.467700
  1.036000  0.845800  0.675000  0.268900  0.468000
  1.040000  0.845300  0.680000  0.271000  0.468600
  1.044000  0.848600  0.682300  0.273000  0.468600
  1.048000  0.846100  0.683300  0.276300  0.469200
  1.052000  0.846900  0.685400  0.278600  0.468900
  1.056000  0.846700  0.688000  0.280800  0.469500
  1.060000  0.848000  0.689200  0.283600  0.469800
  1.064000  0.848500  0.689700  0.286300  0.469200
  1.068000  0.849300  0.689600  0.289000  0.469500
  1.072000  0.848600  0.689600  0.291000  0.471300
  1.076000  0.849400  0.689300  0.294600  0.470400
  1.080000  0.851100  0.688200  0.296700  0.471000
  1.084000  0.851600  0.686100  0.298900  0.471000
  1.088000  0.852400  0.683600  0.301200  0.471300
  1.092000  0.852100  0.683300  0.304100  0.471900
  1.096000  0.853200  0.681000  0.306300  0.472500
  1.100000  0.854700  0.677800  0.309000  0.471300
  1.104000  0.855900  0.674800  0.311000  0.472200
  1.108000  0.856000  0.672800  0.313700  0.471600
  1.112000  0.857000  0.671800  0.316400  0.472500
  1.116000  0.858000  0.669000  0.318400  0.473100
  1.120000  0.858500  0.662800  0.321700  0.471900
  1.124000  0.859100  0.654800  0.322500  0.472200
  1.128000  0.857900  0.643600  0.325400  0.472500
  1.132000  0.856600  0.626600  0.328300  0.471000
  1.136000  0.855400  0.604900  0.330200  0.469800
  1.140000  0.850300  0.582300  0.333000  0.468900
  1.144000  0.845600  0.563800  0.334700  0.467700
  1.148000  0.844000  0.549900  0.336300  0.467100
  1.152000  0.840900  0.538900  0.339500  0.465600
  1.156000  0.836600  0.532300  0.342100  0.465000
  1.160000  0.831300  0.529100  0.343500  0.463600
  1.164000  0.828900  0.526800  0.345900  0.462100
  1.168000  0.825400  0.524800  0.347000  0.460900
  1.172000  0.821400  0.521300  0.350200  0.461800
  1.176000  0.816100  0.520200  0.352000  0.461500
  1.180000  0.809900  0.517700  0.354300  0.460900
  1.184000  0.805900  0.514100  0.355200  0.461200
  1.188000  0.802500  0.511600  0.358200  0.461100
  1.192000  0.798200  0.510400  0.361000  0.461000
  1.196000  0.796900  0.510100  0.362900  0.460500
  1.200000  0.794200  0.509000  0.363500  0.460900
  1.204000  0.791500  0.510000  0.367400  0.460900
  1.208000  0.789700  0.510000  0.369000  0.461600
  1.212000  0.789500  0.509900  0.371400  0.462300
  1.216000  0.787800  0.511300  0.372300  0.463700
  1.220000  0.788200  0.513400  0.374300  0.464700
  1.224000  0.791400  0.515700  0.377300  0.465300
  1.228000  0.792200  0.516600  0.379700  0.465300
  1.232000  0.794700  0.520000  0.381300  0.465900
  1.236000  0.796900  0.521900  0.383400  0.467100
  1.240000  0.799500  0.524300  0.385500  0.468000
  1.244000  0.800000  0.525700  0.386600  0.468100
  1.248000  0.801400  0.526700  0.388500  0.468700
  1.252000  0.801600  0.529100  0.391800  0.469000
  1.256000  0.803400  0.529700  0.392200  0.470400
  1.260000  0.803000  0.530200  0.394600  0.469500
  1.264000  0.804300  0.529400  0.397000  0.469900
  1.268000  0.805800  0.529300  0.398500  0.470200
  1.272000  0.805700  0.528700  0.399600  0.471000
  1.276000  0.808300  0.527500  0.402600  0.471000
  1.280000  0.810500  0.525900  0.404700  0.471300
  1.284000  0.813400  0.524500  0.406200  0.471600
  1.288000  0.816000  0.521600  0.407300  0.471600
  1.292000  0.816500  0.517600  0.410200  0.471600
  1.296000  0.817900  0.511600  0.412500  0.471300
  1.300000  0.820500  0.506600  0.413800  0.471300
  1.304000  0.820000  0.499100  0.414700  0.471300
  1.308000  0.819900  0.490300  0.416900  0.471300
  1.312000  0.818800  0.480500  0.418900  0.470700
  1.316000  0.818400  0.470600  0.419700  0.470500
  1.320000  0.816900  0.460700  0.421800  0.468700
  1.324000  0.813700  0.448700  0.423900  0.467500
  1.328000  0.810600  0.437300  0.424600  0.465500
  1.332000  0.808100  0.427100  0.426600  0.463400
  1.336000  0.804600  0.416600  0.428700  0.461700
  1.340000  0.797800  0.406200  0.429500  0.460800
  1.344000  0.792400  0.395700  0.431000  0.458800
  1.348000  0.785600  0.387700  0.432200  0.456200
  1.352000  0.778300  0.379900  0.433800  0.455000
  1.356000  0.770100  0.372200  0.436100  0.454500
  1.360000  0.762500  0.361900  0.437100  0.451200
  1.364000  0.757100  0.351500  0.438700  0.451200
  1.368000  0.754900  0.338800  0.440300  0.450500
  1.372000  0.752100  0.321500  0.442300  0.448800
  1.376000  0.749800  0.303200  0.442000  0.447100
  1.380000  0.747400  0.276700  0.442700  0.444000
  1.384000  0.746600  0.249800  0.444200  0.439400
  1.388000  0.741800  0.223400  0.444700  0.434400
  1.392000  0.736700  0.198800  0.445800  0.427500
  1.396000  0.726300  0.177400  0.446400  0.419700
  1.400000  0.716100  0.160100  0.445300  0.410300
  1.404000  0.703100  0.147800  0.445800  0.398200
  1.408000  0.685600  0.137200  0.446000  0.385100
  1.412000  0.669700  0.129800  0.446600  0.372400
  1.416000  0.653600  0.123100  0.446700  0.361000
  1.420000  0.638700  0.118300  0.447600  0.346400
  1.424000  0.625900  0.115200  0.449500  0.334900
  1.428000  0.615500  0.112700  0.451100  0.324500
  1.432000  0.607300  0.110100  0.453700  0.317500
  1.436000  0.601900  0.109200  0.454300  0.313600
  1.440000  0.595600  0.107800  0.455100  0.312700
  1.444000  0.591400  0.107100  0.457800  0.314400
  1.448000  0.585300  0.105800  0.459200  0.317100
  1.452000  0.581100  0.106300  0.460700  0.321000
  1.456000  0.575700  0.106100  0.461000  0.324500
  1.460000  0.569800  0.108000  0.462400  0.327400
  1.464000  0.564000  0.109000  0.465000  0.330500
  1.468000  0.558800  0.109800  0.466800  0.334000
  1.472000  0.553900  0.112900  0.467600  0.337700
  1.476000  0.550900  0.115200  0.468800  0.342200
  1.480000  0.548600  0.118300  0.471400  0.345600
  1.484000  0.547600  0.121300  0.473200  0.350400
  1.488000  0.548200  0.126100  0.474600  0.354400
  1.492000  0.549100  0.130400  0.476100  0.357400
  1.496000  0.551100  0.133600  0.477900  0.361000
  1.500000  0.552700  0.136800  0.479900  0.364500
  1.504000  0.553400  0.141600  0.480500  0.365800
  1.508000  0.559000  0.146500  0.482500  0.370600
  1.512000  0.562400  0.151400  0.483900  0.372100
  1.516000  0.563800  0.154900  0.485700  0.373900
  1.520000  0.565700  0.159700  0.487500  0.375800
  1.524000  0.564900  0.164300  0.488900  0.376500
  1.528000  0.566400  0.167900  0.489500  0.378000
  1.532000  0.565700  0.172400  0.491000  0.378200
  1.536000  0.564900  0.177000  0.493000  0.378700
  1.540000  0.564100  0.180900  0.493500  0.378900
  1.544000  0.566900  0.186000  0.494700  0.380300
  1.548000  0.568200  0.190200  0.495600  0.380300
  1.552000  0.569800  0.193300  0.497700  0.381400
  1.556000  0.572300  0.198600  0.498200  0.381800
  1.560000  0.573200  0.203400  0.500500  0.382500
  1.564000  0.573300  0.206200  0.499400  0.383200
  1.568000  0.574800  0.210300  0.501500  0.385100
  1.572000  0.576200  0.213900  0.503900  0.386100
  1.576000  0.578700  0.216800  0.503300  0.387600
  1.580000  0.578500  0.219900  0.505600  0.389000
  1.584000  0.580500  0.223900  0.506700  0.390300
  1.588000  0.584100  0.227800  0.508100  0.392200
  1.592000  0.589600  0.231300  0.508100  0.392700
  1.596000  0.595100  0.234800  0.508700  0.393800
  1.600000  0.601400  0.239800  0.510700  0.394500
  1.604000  0.609800  0.244100  0.511300  0.396200
  1.608000  0.616800  0.248000  0.512200  0.398300
  1.612000  0.623000  0.251800  0.512300  0.397700
  1.616000  0.629800  0.255800  0.511600  0.398700
  1.620000  0.636000  0.260100  0.513100  0.399400
  1.624000  0.641000  0.262100  0.514300  0.400800
  1.628000  0.645200  0.266100  0.513500  0.400400
  1.632000  0.650900  0.269200  0.514300  0.401500
  1.636000  0.657100  0.270200  0.513900  0.401000
  1.640000  0.661600  0.274000  0.513600  0.400400
  1.644000  0.665800  0.276600  0.512100  0.398700
  1.648000  0.669100  0.278800  0.511800  0.398400
  1.652000  0.673900  0.281300  0.511900  0.398300
  1.656000  0.677800  0.284000  0.512100  0.396500
  1.660000  0.680600  0.286200  0.512600  0.396800
  1.664000  0.684300  0.286300  0.511700  0.396600
  1.668000  0.687600  0.287800  0.512600  0.394700
  1.672000  0.686600  0.288200  0.513600  0.396000
  1.676000  0.687500  0.288200  0.514400  0.396200
  1.680000  0.686000  0.287600  0.514500  0.395700
  1.684000  0.683400  0.288200  0.513400  0.393200
  1.688000  0.679900  0.287600  0.513900  0.391100
  1.692000  0.676900  0.286200  0.514100  0.389700
  1.696000  0.671700  0.283100  0.514200  0.387200
  1.700000  0.667500  0.281200  0.514300  0.384400
  1.704000  0.667200  0.281500  0.513600  0.381000
  1.708000  0.668300  0.280500  0.513500  0.378600
  1.712000  0.667600  0.278700  0.512300  0.375300
  1.716000  0.665500  0.276200  0.511200  0.371400
  1.720000  0.664300  0.274300  0.511200  0.368200
  1.724000  0.663800  0.271500  0.509900  0.364000
  1.728000  0.660600  0.268500  0.509500  0.363800
  1.732000  0.658600  0.265500  0.511900  0.363200
  1.736000  0.656900  0.262300  0.514500  0.364300
  1.740000  0.656300  0.258400  0.517100  0.364600
  1.744000  0.654000  0.254300  0.515600  0.365300
  1.748000  0.652700  0.250800  0.515900  0.364800
  1.752000  0.650600  0.247000  0.516900  0.364100
  1.756000  0.649200  0.242800  0.517200  0.363400
  1.760000  0.646500  0.238500  0.518700  0.362700
  1.764000  0.643900  0.236400  0.519600  0.361000
  1.768000  0.643700  0.232600  0.520300  0.359700
  1.772000  0.642700  0.230400  0.521600  0.358900
  1.776000  0.641600  0.229400  0.524000  0.357400
  1.780000  0.642000  0.227900  0.523100  0.358400
  1.784000  0.643900  0.227500  0.524400  0.357600
  1.788000  0.644100  0.225600  0.524900  0.357600
  1.792000  0.643300  0.225600  0.525400  0.358200
  1.796000  0.645300  0.226100  0.525400  0.359000
  1.800000  0.646000  0.226700  0.526300  0.360300
  1.804000  0.644500  0.226300  0.526200  0.361100
  1.808000  0.644100  0.226600  0.527300  0.362800
  1.812000  0.644900  0.227400  0.526800  0.363500
  1.816000  0.644700  0.226500  0.527700  0.365100
  1.820000  0.644500  0.226000  0.528700  0.365800
  1.824000  0.646600  0.225100  0.529500  0.367300
  1.828000  0.647700  0.223800  0.529900  0.368100
  1.832000  0.651100  0.223000  0.530000  0.369300
  1.836000  0.652700  0.219500  0.529800  0.369800
  1.840000  0.657400  0.216100  0.532700  0.371800
  1.844000  0.658000  0.210700  0.531300  0.370600
  1.848000  0.658900  0.204100  0.530700  0.370600
  1.852000  0.660600  0.194800  0.530000  0.370100
  1.856000  0.661300  0.184500  0.529400  0.367700
  1.860000  0.658900  0.171400  0.528000  0.366500
  1.864000  0.656800  0.156300  0.526900  0.362500
  1.868000  0.654600  0.137900  0.524600  0.356600
  1.872000  0.646800  0.120200  0.522300  0.349000
  1.876000  0.638700  0.103900  0.517200  0.340500
  1.880000  0.627300  0.089200  0.510900  0.327600
  1.884000  0.615300  0.074700  0.501600  0.312900
  1.888000  0.598400  0.063000  0.490800  0.293700
  1.892000  0.578900  0.054900  0.477200  0.272700
  1.896000  0.557800  0.048000  0.462800  0.250300
  1.900000  0.537300  0.042200  0.448000  0.227800
  1.904000  0.515900  0.038700  0.436400  0.207800
  1.908000  0.498100  0.037700  0.429200  0.192800
  1.912000  0.484000  0.035400  0.423800  0.180700
  1.916000  0.472300  0.034400  0.422900  0.172900
  1.920000  0.464900  0.034700  0.421700  0.168200
  1.924000  0.461000  0.033600  0.422600  0.165200
  1.928000  0.460200  0.033600  0.424400  0.166900
  1.932000  0.460700  0.033600  0.428000  0.170100
  1.936000  0.464000  0.034400  0.430000  0.174800
  1.940000  0.468700  0.034900  0.433200  0.180600
  1.944000  0.474400  0.035500  0.436900  0.188000
  1.948000  0.480000  0.036600  0.441100  0.194300
  1.952000  0.485600  0.037700  0.444000  0.200200
  1.956000  0.493500  0.038800  0.446100  0.207200
  1.960000  0.500200  0.039300  0.449100  0.215100
  1.964000  0.505100  0.041500  0.451500  0.222800
  1.968000  0.512400  0.042600  0.454400  0.227700
  1.972000  0.519000  0.044900  0.458300  0.233900
  1.976000  0.526000  0.046000  0.460100  0.240800
  1.980000  0.531100  0.047100  0.463000  0.245200
  1.984000  0.536700  0.049500  0.466500  0.251200
  1.988000  0.541700  0.051800  0.469400  0.255600
  1.992000  0.545000  0.053000  0.471700  0.258800
  1.996000  0.548100  0.054700  0.474100  0.261400
  2.000000  0.551400  0.056800  0.477500  0.263400
  2.004000  0.551100  0.058700  0.479900  0.263000
  2.008000  0.549800  0.059700  0.481600  0.262700
  2.012000  0.547900  0.061400  0.483100  0.260700
  2.016000  0.546200  0.064400  0.486200  0.257100
  2.020000  0.539200  0.066000  0.486800  0.255100
  2.024000  0.533100  0.067600  0.488900  0.252500
  2.028000  0.526000  0.068900  0.490000  0.250000
  2.032000  0.517900  0.070700  0.492100  0.247400
  2.036000  0.505500  0.072100  0.491700  0.245000
  2.040000  0.493400  0.074400  0.491400  0.242900
  2.044000  0.482400  0.074900  0.492300  0.239700
  2.048000  0.471200  0.076000  0.493200  0.238400
  2.052000  0.458700  0.078700  0.492900  0.236200
  2.056000  0.448300  0.079300  0.492600  0.234200
  2.060000  0.438200  0.079800  0.492000  0.231900
  2.064000  0.429400  0.081700  0.491800  0.229800
  2.068000  0.420100  0.081900  0.492900  0.227200
  2.072000  0.412300  0.083600  0.490300  0.225400
  2.076000  0.406400  0.084200  0.490600  0.223600
  2.080000  0.400100  0.085400  0.490800  0.222000
  2.084000  0.395700  0.086700  0.489700  0.221100
  2.088000  0.392400  0.087500  0.489500  0.217600
  2.092000  0.388900  0.088400  0.488300  0.217000
  2.096000  0.386700  0.090500  0.487800  0.217300
  2.100000  0.386000  0.092500  0.488400  0.217400
  2.104000  0.386200  0.093100  0.486600  0.217700
  2.108000  0.389300  0.094700  0.486100  0.218500
  2.112000  0.391500  0.098000  0.485500  0.219900
  2.116000  0.396100  0.100400  0.483700  0.221300
  2.120000  0.402400  0.101300  0.482000  0.222700
  2.124000  0.406800  0.104200  0.481200  0.224000
  2.128000  0.412700  0.105800  0.480300  0.226300
  2.132000  0.419300  0.109200  0.478800  0.229200
  2.136000  0.425300  0.110800  0.477100  0.231200
  2.140000  0.430300  0.113000  0.476200  0.233200
  2.144000  0.434600  0.115100  0.475600  0.235500
  2.148000  0.439400  0.117200  0.475300  0.238300
  2.152000  0.444600  0.118000  0.473500  0.239800
  2.156000  0.449500  0.119700  0.471700  0.242000
  2.160000  0.454200  0.121400  0.471700  0.244200
  2.164000  0.457200  0.123400  0.472300  0.245300
  2.168000  0.462500  0.125000  0.470600  0.245800
  2.172000  0.467100  0.125700  0.469400  0.247600
  2.176000  0.471500  0.127900  0.468800  0.249300
  2.180000  0.476100  0.129400  0.468000  0.249900
  2.184000  0.481300  0.129500  0.467100  0.250600
  2.188000  0.485400  0.130900  0.466300  0.251500
  2.192000  0.488800  0.132200  0.465400  0.251600
  2.196000  0.493200  0.133600  0.464500  0.251000
  2.200000  0.496600  0.134300  0.462800  0.248500
  2.204000  0.498600  0.133800  0.462500  0.246100
  2.208000  0.501400  0.135800  0.463600  0.243900
  2.212000  0.505300  0.134900  0.461300  0.238400
  2.216000  0.505600  0.135200  0.459600  0.232400
  2.220000  0.507000  0.134900  0.460500  0.224200
  2.224000  0.506700  0.135300  0.457300  0.217500
  2.228000  0.506700  0.134700  0.455000  0.210700
  2.232000  0.502100  0.133000  0.452900  0.204800
  2.236000  0.497500  0.133300  0.450600  0.201100
  2.240000  0.491200  0.131600  0.446900  0.200600
  2.244000  0.481300  0.128400  0.441600  0.201300
  2.248000  0.468000  0.125900  0.438300  0.204900
  2.252000  0.453800  0.122400  0.433200  0.207200
  2.256000  0.440300  0.119400  0.429200  0.207600
  2.260000  0.425200  0.115900  0.426200  0.208600
  2.264000  0.414100  0.113200  0.421800  0.207900
  2.268000  0.408100  0.111000  0.421200  0.206400
  2.272000  0.405000  0.110000  0.418400  0.205700
  2.276000  0.407200  0.108400  0.415400  0.203500
  2.280000  0.408900  0.108400  0.413600  0.202100
  2.284000  0.410500  0.107100  0.411200  0.200200
  2.288000  0.412000  0.107000  0.406500  0.196800
  2.292000  0.411200  0.105100  0.405700  0.193400
  2.296000  0.406100  0.103500  0.402900  0.190400
  2.300000  0.401500  0.100900  0.400600  0.186600
  2.304000  0.397800  0.099900  0.401600  0.185200
  2.308000  0.386300  0.095000  0.404000  0.180700
  2.312000  0.380100  0.094400  0.405000  0.177800
  2.316000  0.374200  0.092500  0.409400  0.175800
  2.320000  0.368300  0.090300  0.409900  0.175000
  2.324000  0.364900  0.087800  0.411000  0.172400
  2.328000  0.361400  0.087000  0.411100  0.171700
  2.332000  0.357400  0.084400  0.409200  0.170700
  2.336000  0.356800  0.083500  0.407400  0.169200
  2.340000  0.357500  0.081600  0.407100  0.167900
  2.344000  0.357800  0.081000  0.405600  0.165400
  2.348000  0.358100  0.079300  0.404100  0.162600
  2.352000  0.360500  0.078300  0.405300  0.160900
  2.356000  0.362900  0.077000  0.407400  0.159000
  2.360000  0.364200  0.076900  0.407800  0.157900
  2.364000  0.365800  0.075600  0.407100  0.158800
  2.368000  0.368200  0.075100  0.406500  0.160500
  2.372000  0.370900  0.073000  0.404800  0.162100
  2.376000  0.373300  0.072400  0.403000  0.165500
  2.380000  0.375000  0.071600  0.402300  0.167800
  2.384000  0.377000  0.070400  0.400100  0.170200
  2.388000  0.377700  0.068400  0.397600  0.171100
  2.392000  0.377700  0.068200  0.398300  0.172200
  2.396000  0.379600  0.066900  0.396200  0.172100
  2.400000  0.379100  0.065900  0.394400  0.172600
  2.404000  0.377000  0.064300  0.393100  0.171700
  2.408000  0.375300  0.063500  0.390900  0.170100
  2.412000  0.372700  0.061700  0.389400  0.166400
  2.416000  0.366900  0.061200  0.387600  0.163800
  2.420000  0.362800  0.058800  0.385100  0.160200
  2.424000  0.356900  0.057100  0.382700  0.155400
  2.428000  0.349300  0.056100  0.380700  0.150700
  2.432000  0.341600  0.054800  0.378900  0.145300
  2.436000  0.332500  0.052400  0.377000  0.141000
  2.440000  0.324500  0.051300  0.375100  0.137700
  2.444000  0.314500  0.049000  0.373200  0.133600
  2.448000  0.304100  0.047200  0.370800  0.129400
  2.452000  0.294700  0.045600  0.367800  0.126300
  2.456000  0.285900  0.044500  0.365900  0.122900
  2.460000  0.276000  0.043200  0.364500  0.120600
  2.464000  0.266700  0.040900  0.363700  0.117200
  2.468000  0.260200  0.039800  0.361500  0.114000
  2.472000  0.253600  0.039100  0.359700  0.112900
  2.476000  0.247800  0.038500  0.358900  0.111600
  2.480000  0.245500  0.037000  0.358300  0.110700
  2.484000  0.244100  0.036400  0.356900  0.109000
  2.488000  0.244100  0.036300  0.357000  0.108200
  2.492000  0.245200  0.037300  0.356400  0.108600
  2.496000  0.247500  0.035800  0.355400  0.107700
  2.500000  0.249900  0.035800  0.355000  0.108400
